Folder: GUI-Thermakin2D/ThermaKin2D App/ThermaKin

File: CC_PMMA.txt
ThermaKin Program Version 7

Components file:  CC_PMMA.cmp
Conditions file:  CC_PMMA.cnd

Number of components:  6
Number of reactions:  2
Mixture rules assigned:  yes

Object type:  1D

Top Boundary
External radiation:  on
Mass transport:  on
Ignition:  on

Bottom Boundary
External radiation:  off
Mass transport:  off
Ignition:  off

Started on:  Wed Apr 24 18:16:08 2019

**************************************************************************

Time [s] =	0.000000e+00

BOUNDARY	AREA [m^2]   	HEAT FLOW IN [W]	MASS FLOW OUT [kg/s]:	PMMA	PMMA_glass	PMMA_res	PMMA_gas	KAOWOOL	KAOWOOL_back
TOP     	1.000000e+00	4.677866e+04		0.000000e+00	0.000000e+00	0.000000e+00	0.000000e+00	0.000000e+00	0.000000e+00
BOTTOM  	1.000000e+00	0.000000e+00		0.000000e+00	0.000000e+00	0.000000e+00	0.000000e+00	0.000000e+00	0.000000e+00

FROM TOP [m]	TEMPERATURE [K]   	CONCENTRATION [kg/m^3]:	PMMA	PMMA_glass	PMMA_res	PMMA_gas	KAOWOOL	KAOWOOL_back
2.500000e-05	3.000000e+02		1.155000e+03	0.000000e+00	0.000000e+00	0.000000e+00	0.000000e+00	0.000000e+00
1.025000e-03	3.000000e+02		1.155000e+03	0.000000e+00	0.000000e+00	0.000000e+00	0.000000e+00	0.000000e+00
2.025000e-03	3.000000e+02		1.155000e+03	0.000000e+00	0.000000e+00	0.000000e+00	0.000000e+00	0.000000e+00
3.025000e-03	3.000000e+02		1.155000e+03	0.000000e+00	0.000000e+00	0.000000e+00	0.000000e+00	0.000000e+00
4.025000e-03	3.000000e+02		1.155000e+03	0.000000e+00	0.000000e+00	0.000000e+00	0.000000e+00	0.000000e+00
5.025000e-03	3.000000e+02		1.155000e+03	0.000000e+00	0.000000e+00	0.000000e+00	0.000000e+00	0.000000e+00
6.025000e-03	3.000000e+02		0.000000e+00	0.000000e+00	0.000000e+00	0.000000e+00	2.560000e+02	0.000000e+00
7.025000e-03	3.000000e+02		0.000000e+00	0.000000e+00	0.000000e+00	0.000000e+00	2.560000e+02	0.000000e+00
8.025000e-03	3.000000e+02		0.000000e+00	0.000000e+00	0.000000e+00	0.000000e+00	2.560000e+02	0.000000e+00
9.025000e-03	3.000000e+02		0.000000e+00	0.000000e+00	0.000000e+00	0.000000e+00	2.560000e+02	0.000000e+00
1.002500e-02	3.000000e+02		0.000000e+00	0.000000e+00	0.000000e+00	0.000000e+00	2.560000e+02	0.000000e+00
1.102500e-02	3.000000e+02		0.000000e+00	0.000000e+00	0.000000e+00	0.000000e+00	2.560000e+02	0.000000e+00
1.202500e-02	3.000000e+02		0.000000e+00	0.000000e+00	0.000000e+00	0.000000e+00	2.560000e+02	0.000000e+00
1.302500e-02	3.000000e+02		0.000000e+00	0.000000e+00	0.000000e+00	0.000000e+00	2.560000e+02	0.000000e+00
1.402500e-02	3.000000e+02		0.000000e+00	0.000000e+00	0.000000e+00	0.000000e+00	2.560000e+02	0.000000e+00
1.502500e-02	3.000000e+02		0.000000e+00	0.000000e+00	0.000000e+00	0.000000e+00	2.560000e+02	0.000000e+00
1.602500e-02	3.000000e+02		0.000000e+00	0.000000e+00	0.000000e+00	0.000000e+00	2.560000e+02	0.000000e+00
1.702500e-02	3.000000e+02		0.000000e+00	0.000000e+00	0.000000e+00	0.000000e+00	2.560000e+02	0.000000e+00
1.802500e-02	3.000000e+02		0.000000e+00	0.000000e+00	0.000000e+00	0.000000e+00	2.560000e+02	0.000000e+00
1.902500e-02	3.000000e+02		0.000000e+00	0.000000e+00	0.000000e+00	0.000000e+00	2.560000e+02	0.000000e+00
2.002500e-02	3.000000e+02		0.000000e+00	0.000000e+00	0.000000e+00	0.000000e+00	2.560000e+02	0.000000e+00
2.102500e-02	3.000000e+02		0.000000e+00	0.000000e+00	0.000000e+00	0.000000e+00	2.560000e+02	0.000000e+00
2.202500e-02	3.000000e+02		0.000000e+00	0.000000e+00	0.000000e+00	0.000000e+00	2.560000e+02	0.000000e+00
2.302500e-02	3.000000e+02		0.000000e+00	0.000000e+00	0.000000e+00	0.000000e+00	2.560000e+02	0.000000e+00
2.402500e-02	3.000000e+02		0.000000e+00	0.000000e+00	0.000000e+00	0.000000e+00	0.000000e+00	2.560000e+02
2.497500e-02	3.000000e+02		0.000000e+00	0.000000e+00	0.000000e+00	0.000000e+00	0.000000e+00	2.560000e+02

Total thickness [m] =	2.500000e-02
Total mass [kg/m^2] =	1.179400e+01

**************************************************************************

Time [s] =	1.000000e+00

BOUNDARY	AREA [m^2]   	HEAT FLOW IN [W]	MASS FLOW OUT [kg/s]:	PMMA	PMMA_glass	PMMA_res	PMMA_gas	KAOWOOL	KAOWOOL_back
TOP     	1.000000e+00	4.630998e+04		0.000000e+00	0.000000e+00	0.000000e+00	0.000000e+00	0.000000e+00	0.000000e+00
BOTTOM  	1.000000e+00	0.000000e+00		0.000000e+00	0.000000e+00	0.000000e+00	0.000000e+00	0.000000e+00	0.000000e+00

FROM TOP [m]	TEMPERATURE [K]   	CONCENTRATION [kg/m^3]:	PMMA	PMMA_glass	PMMA_res	PMMA_gas	KAOWOOL	KAOWOOL_back
2.500000e-05	3.341504e+02		1.155000e+03	0.000000e+00	0.000000e+00	0.000000e+00	0.000000e+00	0.000000e+00
1.025000e-03	3.084191e+02		1.155000e+03	0.000000e+00	0.000000e+00	0.000000e+00	0.000000e+00	0.000000e+00
2.025000e-03	3.008513e+02		1.155000e+03	0.000000e+00	0.000000e+00	0.000000e+00	0.000000e+00	0.000000e+00
3.025000e-03	3.000693e+02		1.155000e+03	0.000000e+00	0.000000e+00	0.000000e+00	0.000000e+00	0.000000e+00
4.025000e-03	3.000000e+02		1.155000e+03	0.000000e+00	0.000000e+00	0.000000e+00	0.000000e+00	0.000000e+00
5.025000e-03	3.000000e+02		1.155000e+03	0.000000e+00	0.000000e+00	0.000000e+00	0.000000e+00	0.000000e+00
6.025000e-03	3.000000e+02		0.000000e+00	0.000000e+00	0.000000e+00	0.000000e+00	2.560000e+02	0.000000e+00
7.025000e-03	3.000000e+02		0.000000e+00	0.000000e+00	0.000000e+00	0.000000e+00	2.560000e+02	0.000000e+00
8.025000e-03	3.000000e+02		0.000000e+00	0.000000e+00	0.000000e+00	0.000000e+00	2.560000e+02	0.000000e+00
9.025000e-03	3.000000e+02		0.000000e+00	0.000000e+00	0.000000e+00	0.000000e+00	2.560000e+02	0.000000e+00
1.002500e-02	3.000000e+02		0.000000e+00	0.000000e+00	0.000000e+00	0.000000e+00	2.560000e+02	0.000000e+00
1.102500e-02	3.000000e+02		0.000000e+00	0.000000e+00	0.000000e+00	0.000000e+00	2.560000e+02	0.000000e+00
1.202500e-02	3.000000e+02		0.000000e+00	0.000000e+00	0.000000e+00	0.000000e+00	2.560000e+02	0.000000e+00
1.302500e-02	3.000000e+02		0.000000e+00	0.000000e+00	0.000000e+00	0.000000e+00	2.560000e+02	0.000000e+00
1.402500e-02	3.000000e+02		0.000000e+00	0.000000e+00	0.000000e+00	0.000000e+00	2.560000e+02	0.000000e+00
1.502500e-02	3.000000e+02		0.000000e+00	0.000000e+00	0.000000e+00	0.000000e+00	2.560000e+02	0.000000e+00
1.602500e-02	3.000000e+02		0.000000e+00	0.000000e+00	0.000000e+00	0.000000e+00	2.560000e+02	0.000000e+00
1.702500e-02	3.000000e+02		0.000000e+00	0.000000e+00	0.000000e+00	0.000000e+00	2.560000e+02	0.000000e+00
1.802500e-02	3.000000e+02		0.000000e+00	0.000000e+00	0.000000e+00	0.000000e+00	2.560000e+02	0.000000e+00
1.902500e-02	3.000000e+02		0.000000e+00	0.000000e+00	0.000000e+00	0.000000e+00	2.560000e+02	0.000000e+00
2.002500e-02	3.000000e+02		0.000000e+00	0.000000e+00	0.000000e+00	0.000000e+00	2.560000e+02	0.000000e+00
2.102500e-02	3.000000e+02		0.000000e+00	0.000000e+00	0.000000e+00	0.000000e+00	2.560000e+02	0.000000e+00
2.202500e-02	3.000000e+02		0.000000e+00	0.000000e+00	0.000000e+00	0.000000e+00	2.560000e+02	0.000000e+00
2.302500e-02	3.000000e+02		0.000000e+00	0.000000e+00	0.000000e+00	0.000000e+00	2.560000e+02	0.000000e+00
2.402500e-02	3.000000e+02		0.000000e+00	0.000000e+00	0.000000e+00	0.000000e+00	0.000000e+00	2.560000e+02
2.497500e-02	3.000000e+02		0.000000e+00	0.000000e+00	0.000000e+00	0.000000e+00	0.000000e+00	2.560000e+02

Total thickness [m] =	2.500000e-02
Total mass [kg/m^2] =	1.179400e+01

**************************************************************************

Time [s] =	2.000000e+00

BOUNDARY	AREA [m^2]   	HEAT FLOW IN [W]	MASS FLOW OUT [kg/s]:	PMMA	PMMA_glass	PMMA_res	PMMA_gas	KAOWOOL	KAOWOOL_back
TOP     	1.000000e+00	4.613345e+04		0.000000e+00	0.000000e+00	0.000000e+00	0.000000e+00	0.000000e+00	0.000000e+00
BOTTOM  	1.000000e+00	0.000000e+00		0.000000e+00	0.000000e+00	0.000000e+00	0.000000e+00	0.000000e+00	0.000000e+00

FROM TOP [m]	TEMPERATURE [K]   	CONCENTRATION [kg/m^3]:	PMMA	PMMA_glass	PMMA_res	PMMA_gas	KAOWOOL	KAOWOOL_back
2.500000e-05	3.530998e+02		1.155000e+03	0.000000e+00	0.000000e+00	0.000000e+00	0.000000e+00	0.000000e+00
1.025000e-03	3.182632e+02		1.155000e+03	0.000000e+00	0.000000e+00	0.000000e+00	0.000000e+00	0.000000e+00
2.025000e-03	3.024779e+02		1.155000e+03	0.000000e+00	0.000000e+00	0.000000e+00	0.000000e+00	0.000000e+00
3.025000e-03	3.003111e+02		1.155000e+03	0.000000e+00	0.000000e+00	0.000000e+00	0.000000e+00	0.000000e+00
4.025000e-03	3.000120e+02		1.155000e+03	0.000000e+00	0.000000e+00	0.000000e+00	0.000000e+00	0.000000e+00
5.025000e-03	3.000001e+02		1.155000e+03	0.000000e+00	0.000000e+00	0.000000e+00	0.000000e+00	0.000000e+00
6.025000e-03	3.000000e+02		0.000000e+00	0.000000e+00	0.000000e+00	0.000000e+00	2.560000e+02	0.000000e+00
7.025000e-03	3.000000e+02		0.000000e+00	0.000000e+00	0.000000e+00	0.000000e+00	2.560000e+02	0.000000e+00
8.025000e-03	3.000000e+02		0.000000e+00	0.000000e+00	0.000000e+00	0.000000e+00	2.560000e+02	0.000000e+00
9.025000e-03	3.000000e+02		0.000000e+00	0.000000e+00	0.000000e+00	0.000000e+00	2.560000e+02	0.000000e+00
1.002500e-02	3.000000e+02		0.000000e+00	0.000000e+00	0.000000e+00	0.000000e+00	2.560000e+02	0.000000e+00
1.102500e-02	3.000000e+02		0.000000e+00	0.000000e+00	0.000000e+00	0.000000e+00	2.560000e+02	0.000000e+00
1.202500e-02	3.000000e+02		0.000000e+00	0.000000e+00	0.000000e+00	0.000000e+00	2.560000e+02	0.000000e+00
1.302500e-02	3.000000e+02		0.000000e+00	0.000000e+00	0.000000e+00	0.000000e+00	2.560000e+02	0.000000e+00
1.402500e-02	3.000000e+02		0.000000e+00	0.000000e+00	0.000000e+00	0.000000e+00	2.560000e+02	0.000000e+00
1.502500e-02	3.000000e+02		0.000000e+00	0.000000e+00	0.000000e+00	0.000000e+00	2.560000e+02	0.000000e+00
1.602500e-02	3.000000e+02		0.000000e+00	0.000000e+00	0.000000e+00	0.000000e+00	2.560000e+02	0.000000e+00
1.702500e-02	3.000000e+02		0.000000e+00	0.000000e+00	0.000000e+00	0.000000e+00	2.560000e+02	0.000000e+00
1.802500e-02	3.000000e+02		0.000000e+00	0.000000e+00	0.000000e+00	0.000000e+00	2.560000e+02	0.000000e+00
1.902500e-02	3.000000e+02		0.000000e+00	0.000000e+00	0.000000e+00	0.000000e+00	2.560000e+02	0.000000e+00
2.002500e-02	3.000000e+02		0.000000e+00	0.000000e+00	0.000000e+00	0.000000e+00	2.560000e+02	0.000000e+00
2.102500e-02	3.000000e+02		0.000000e+00	0.000000e+00	0.000000e+00	0.000000e+00	2.560000e+02	0.000000e+00
2.202500e-02	3.000000e+02		0.000000e+00	0.000000e+00	0.000000e+00	0.000000e+00	2.560000e+02	0.000000e+00
2.302500e-02	3.000000e+02		0.000000e+00	0.000000e+00	0.000000e+00	0.000000e+00	2.560000e+02	0.000000e+00
2.402500e-02	3.000000e+02		0.000000e+00	0.000000e+00	0.000000e+00	0.000000e+00	0.000000e+00	2.560000e+02
2.497500e-02	3.000000e+02		0.000000e+00	0.000000e+00	0.000000e+00	0.000000e+00	0.000000e+00	2.560000e+02

Total thickness [m] =	2.500000e-02
Total mass [kg/m^2] =	1.179400e+01

**************************************************************************

Time [s] =	3.000000e+00

BOUNDARY	AREA [m^2]   	HEAT FLOW IN [W]	MASS FLOW OUT [kg/s]:	PMMA	PMMA_glass	PMMA_res	PMMA_gas	KAOWOOL	KAOWOOL_back
TOP     	1.000000e+00	4.595296e+04		0.000000e+00	0.000000e+00	0.000000e+00	0.000000e+00	0.000000e+00	0.000000e+00
BOTTOM  	1.000000e+00	0.000000e+00		0.000000e+00	0.000000e+00	0.000000e+00	0.000000e+00	0.000000e+00	0.000000e+00

FROM TOP [m]	TEMPERATURE [K]   	CONCENTRATION [kg/m^3]:	PMMA	PMMA_glass	PMMA_res	PMMA_gas	KAOWOOL	KAOWOOL_back
2.500000e-05	3.701670e+02		1.155000e+03	0.000000e+00	0.000000e+00	0.000000e+00	0.000000e+00	0.000000e+00
1.025000e-03	3.259763e+02		1.155000e+03	0.000000e+00	0.000000e+00	0.000000e+00	0.000000e+00	0.000000e+00
2.025000e-03	3.050844e+02		1.155000e+03	0.000000e+00	0.000000e+00	0.000000e+00	0.000000e+00	0.000000e+00
3.025000e-03	3.008502e+02		1.155000e+03	0.000000e+00	0.000000e+00	0.000000e+00	0.000000e+00	0.000000e+00
4.025000e-03	3.000837e+02		1.155000e+03	0.000000e+00	0.000000e+00	0.000000e+00	0.000000e+00	0.000000e+00
5.025000e-03	3.000027e+02		1.155000e+03	0.000000e+00	0.000000e+00	0.000000e+00	0.000000e+00	0.000000e+00
6.025000e-03	3.000001e+02		0.000000e+00	0.000000e+00	0.000000e+00	0.000000e+00	2.560000e+02	0.000000e+00
7.025000e-03	3.000000e+02		0.000000e+00	0.000000e+00	0.000000e+00	0.000000e+00	2.560000e+02	0.000000e+00
8.025000e-03	3.000000e+02		0.000000e+00	0.000000e+00	0.000000e+00	0.000000e+00	2.560000e+02	0.000000e+00
9.025000e-03	3.000000e+02		0.000000e+00	0.000000e+00	0.000000e+00	0.000000e+00	2.560000e+02	0.000000e+00
1.002500e-02	3.000000e+02		0.000000e+00	0.000000e+00	0.000000e+00	0.000000e+00	2.560000e+02	0.000000e+00
1.102500e-02	3.000000e+02		0.000000e+00	0.000000e+00	0.000000e+00	0.000000e+00	2.560000e+02	0.000000e+00
1.202500e-02	3.000000e+02		0.000000e+00	0.000000e+00	0.000000e+00	0.000000e+00	2.560000e+02	0.000000e+00
1.302500e-02	3.000000e+02		0.000000e+00	0.000000e+00	0.000000e+00	0.000000e+00	2.560000e+02	0.000000e+00
1.402500e-02	3.000000e+02		0.000000e+00	0.000000e+00	0.000000e+00	0.000000e+00	2.560000e+02	0.000000e+00
1.502500e-02	3.000000e+02		0.000000e+00	0.000000e+00	0.000000e+00	0.000000e+00	2.560000e+02	0.000000e+00
1.602500e-02	3.000000e+02		0.000000e+00	0.000000e+00	0.000000e+00	0.000000e+00	2.560000e+02	0.000000e+00
1.702500e-02	3.000000e+02		0.000000e+00	0.000000e+00	0.000000e+00	0.000000e+00	2.560000e+02	0.000000e+00
1.802500e-02	3.000000e+02		0.000000e+00	0.000000e+00	0.000000e+00	0.000000e+00	2.560000e+02	0.000000e+00
1.902500e-02	3.000000e+02		0.000000e+00	0.000000e+00	0.000000e+00	0.000000e+00	2.560000e+02	0.000000e+00
2.002500e-02	3.000000e+02		0.000000e+00	0.000000e+00	0.000000e+00	0.000000e+00	2.560000e+02	0.000000e+00
2.102500e-02	3.000000e+02		0.000000e+00	0.000000e+00	0.000000e+00	0.000000e+00	2.560000e+02	0.000000e+00
2.202500e-02	3.000000e+02		0.000000e+00	0.000000e+00	0.000000e+00	0.000000e+00	2.560000e+02	0.000000e+00
2.302500e-02	3.000000e+02		0.000000e+00	0.000000e+00	0.000000e+00	0.000000e+00	2.560000e+02	0.000000e+00
2.402500e-02	3.000000e+02		0.000000e+00	0.000000e+00	0.000000e+00	0.000000e+00	0.000000e+00	2.560000e+02
2.497500e-02	3.000000e+02		0.000000e+00	0.000000e+00	0.000000e+00	0.000000e+00	0.000000e+00	2.560000e+02

Total thickness [m] =	2.500000e-02
Total mass [kg/m^2] =	1.179400e+01

**************************************************************************

Time [s] =	4.000000e+00

BOUNDARY	AREA [m^2]   	HEAT FLOW IN [W]	MASS FLOW OUT [kg/s]:	PMMA	PMMA_glass	PMMA_res	PMMA_gas	KAOWOOL	KAOWOOL_back
TOP     	1.000000e+00	4.568069e+04		0.000000e+00	0.000000e+00	0.000000e+00	7.174284e-15	0.000000e+00	0.000000e+00
BOTTOM  	1.000000e+00	0.000000e+00		0.000000e+00	0.000000e+00	0.000000e+00	0.000000e+00	0.000000e+00	0.000000e+00

FROM TOP [m]	TEMPERATURE [K]   	CONCENTRATION [kg/m^3]:	PMMA	PMMA_glass	PMMA_res	PMMA_gas	KAOWOOL	KAOWOOL_back
2.500000e-05	3.816156e+02		6.866683e+02	4.683317e+02	2.489984e-13	1.434857e-13	0.000000e+00	0.000000e+00
1.025000e-03	3.375875e+02		1.155000e+03	0.000000e+00	0.000000e+00	1.005307e-13	0.000000e+00	0.000000e+00
2.025000e-03	3.083293e+02		1.155000e+03	0.000000e+00	0.000000e+00	6.029538e-14	0.000000e+00	0.000000e+00
3.025000e-03	3.017040e+02		1.155000e+03	0.000000e+00	0.000000e+00	3.714066e-14	0.000000e+00	0.000000e+00
4.025000e-03	3.002101e+02		1.155000e+03	0.000000e+00	0.000000e+00	2.398060e-14	0.000000e+00	0.000000e+00
5.025000e-03	3.000166e+02		1.155000e+03	0.000000e+00	0.000000e+00	1.713181e-14	0.000000e+00	0.000000e+00
6.025000e-03	3.000011e+02		0.000000e+00	0.000000e+00	0.000000e+00	1.536323e-36	2.560000e+02	0.000000e+00
7.025000e-03	3.000000e+02		0.000000e+00	0.000000e+00	0.000000e+00	0.000000e+00	2.560000e+02	0.000000e+00
8.025000e-03	3.000000e+02		0.000000e+00	0.000000e+00	0.000000e+00	0.000000e+00	2.560000e+02	0.000000e+00
9.025000e-03	3.000000e+02		0.000000e+00	0.000000e+00	0.000000e+00	0.000000e+00	2.560000e+02	0.000000e+00
1.002500e-02	3.000000e+02		0.000000e+00	0.000000e+00	0.000000e+00	0.000000e+00	2.560000e+02	0.000000e+00
1.102500e-02	3.000000e+02		0.000000e+00	0.000000e+00	0.000000e+00	0.000000e+00	2.560000e+02	0.000000e+00
1.202500e-02	3.000000e+02		0.000000e+00	0.000000e+00	0.000000e+00	0.000000e+00	2.560000e+02	0.000000e+00
1.302500e-02	3.000000e+02		0.000000e+00	0.000000e+00	0.000000e+00	0.000000e+00	2.560000e+02	0.000000e+00
1.402500e-02	3.000000e+02		0.000000e+00	0.000000e+00	0.000000e+00	0.000000e+00	2.560000e+02	0.000000e+00
1.502500e-02	3.000000e+02		0.000000e+00	0.000000e+00	0.000000e+00	0.000000e+00	2.560000e+02	0.000000e+00
1.602500e-02	3.000000e+02		0.000000e+00	0.000000e+00	0.000000e+00	0.000000e+00	2.560000e+02	0.000000e+00
1.702500e-02	3.000000e+02		0.000000e+00	0.000000e+00	0.000000e+00	0.000000e+00	2.560000e+02	0.000000e+00
1.802500e-02	3.000000e+02		0.000000e+00	0.000000e+00	0.000000e+00	0.000000e+00	2.560000e+02	0.000000e+00
1.902500e-02	3.000000e+02		0.000000e+00	0.000000e+00	0.000000e+00	0.000000e+00	2.560000e+02	0.000000e+00
2.002500e-02	3.000000e+02		0.000000e+00	0.000000e+00	0.000000e+00	0.000000e+00	2.560000e+02	0.000000e+00
2.102500e-02	3.000000e+02		0.000000e+00	0.000000e+00	0.000000e+00	0.000000e+00	2.560000e+02	0.000000e+00
2.202500e-02	3.000000e+02		0.000000e+00	0.000000e+00	0.000000e+00	0.000000e+00	2.560000e+02	0.000000e+00
2.302500e-02	3.000000e+02		0.000000e+00	0.000000e+00	0.000000e+00	0.000000e+00	2.560000e+02	0.000000e+00
2.402500e-02	3.000000e+02		0.000000e+00	0.000000e+00	0.000000e+00	0.000000e+00	0.000000e+00	2.560000e+02
2.497500e-02	3.000000e+02		0.000000e+00	0.000000e+00	0.000000e+00	0.000000e+00	0.000000e+00	2.560000e+02

Total thickness [m] =	2.500000e-02
Total mass [kg/m^2] =	1.179400e+01

**************************************************************************

Time [s] =	5.000000e+00

[...]

Total thickness [m] =	1.909000e-02
Total mass [kg/m^2] =	4.967950e+00

**************************************************************************

Time [s] =	2.980000e+02

BOUNDARY	AREA [m^2]   	HEAT FLOW IN [W]	MASS FLOW OUT [kg/s]:	PMMA	PMMA_glass	PMMA_res	PMMA_gas	KAOWOOL	KAOWOOL_back
TOP     	1.000000e+00	6.123969e+03		0.000000e+00	0.000000e+00	0.000000e+00	6.208204e-45	0.000000e+00	0.000000e+00
BOTTOM  	1.000000e+00	0.000000e+00		0.000000e+00	0.000000e+00	0.000000e+00	0.000000e+00	0.000000e+00	0.000000e+00

FROM TOP [m]	TEMPERATURE [K]   	CONCENTRATION [kg/m^3]:	PMMA	PMMA_glass	PMMA_res	PMMA_gas	KAOWOOL	KAOWOOL_back
2.000009e-05	9.002863e+02		2.201311e-88	2.138028e-90	1.155000e+03	1.241641e-43	0.000000e+00	0.000000e+00
1.015000e-03	8.568679e+02		0.000000e+00	0.000000e+00	0.000000e+00	0.000000e+00	2.560000e+02	0.000000e+00
2.015000e-03	7.990937e+02		0.000000e+00	0.000000e+00	0.000000e+00	0.000000e+00	2.560000e+02	0.000000e+00
3.015000e-03	7.391709e+02		0.000000e+00	0.000000e+00	0.000000e+00	0.000000e+00	2.560000e+02	0.000000e+00
4.015000e-03	6.784186e+02		0.000000e+00	0.000000e+00	0.000000e+00	0.000000e+00	2.560000e+02	0.000000e+00
5.015000e-03	6.186219e+02		0.000000e+00	0.000000e+00	0.000000e+00	0.000000e+00	2.560000e+02	0.000000e+00
6.015000e-03	5.618517e+02		0.000000e+00	0.000000e+00	0.000000e+00	0.000000e+00	2.560000e+02	0.000000e+00
7.015000e-03	5.101181e+02		0.000000e+00	0.000000e+00	0.000000e+00	0.000000e+00	2.560000e+02	0.000000e+00
8.015000e-03	4.649478e+02		0.000000e+00	0.000000e+00	0.000000e+00	0.000000e+00	2.560000e+02	0.000000e+00
9.015000e-03	4.270976e+02		0.000000e+00	0.000000e+00	0.000000e+00	0.000000e+00	2.560000e+02	0.000000e+00
1.001500e-02	3.965237e+02		0.000000e+00	0.000000e+00	0.000000e+00	0.000000e+00	2.560000e+02	0.000000e+00
1.101500e-02	3.725753e+02		0.000000e+00	0.000000e+00	0.000000e+00	0.000000e+00	2.560000e+02	0.000000e+00
1.201500e-02	3.542759e+02		0.000000e+00	0.000000e+00	0.000000e+00	0.000000e+00	2.560000e+02	0.000000e+00
1.301500e-02	3.405712e+02		0.000000e+00	0.000000e+00	0.000000e+00	0.000000e+00	2.560000e+02	0.000000e+00
1.401500e-02	3.304900e+02		0.000000e+00	0.000000e+00	0.000000e+00	0.000000e+00	2.560000e+02	0.000000e+00
1.501500e-02	3.232226e+02		0.000000e+00	0.000000e+00	0.000000e+00	0.000000e+00	2.560000e+02	0.000000e+00
1.601500e-02	3.181412e+02		0.000000e+00	0.000000e+00	0.000000e+00	0.000000e+00	2.560000e+02	0.000000e+00
1.701500e-02	3.147895e+02		0.000000e+00	0.000000e+00	0.000000e+00	0.000000e+00	2.560000e+02	0.000000e+00
1.801500e-02	3.128615e+02		0.000000e+00	0.000000e+00	0.000000e+00	0.000000e+00	0.000000e+00	2.560000e+02
1.901500e-02	3.121801e+02		0.000000e+00	0.000000e+00	0.000000e+00	0.000000e+00	0.000000e+00	2.560000e+02
1.906500e-02	3.121771e+02		0.000000e+00	0.000000e+00	0.000000e+00	0.000000e+00	0.000000e+00	2.560000e+02

Total thickness [m] =	1.909000e-02
Total mass [kg/m^2] =	4.967950e+00

**************************************************************************

Time [s] =	2.990000e+02

BOUNDARY	AREA [m^2]   	HEAT FLOW IN [W]	MASS FLOW OUT [kg/s]:	PMMA	PMMA_glass	PMMA_res	PMMA_gas	KAOWOOL	KAOWOOL_back
TOP     	1.000000e+00	5.116161e+03		0.000000e+00	0.000000e+00	0.000000e+00	6.208204e-45	0.000000e+00	0.000000e+00
BOTTOM  	1.000000e+00	0.000000e+00		0.000000e+00	0.000000e+00	0.000000e+00	0.000000e+00	0.000000e+00	0.000000e+00

FROM TOP [m]	TEMPERATURE [K]   	CONCENTRATION [kg/m^3]:	PMMA	PMMA_glass	PMMA_res	PMMA_gas	KAOWOOL	KAOWOOL_back
2.000009e-05	9.000995e+02		8.098102e-89	7.846681e-91	1.155000e+03	1.241641e-43	0.000000e+00	0.000000e+00
1.015000e-03	8.572032e+02		0.000000e+00	0.000000e+00	0.000000e+00	0.000000e+00	2.560000e+02	0.000000e+00
2.015000e-03	7.999098e+02		0.000000e+00	0.000000e+00	0.000000e+00	0.000000e+00	2.560000e+02	0.000000e+00
3.015000e-03	7.403613e+02		0.000000e+00	0.000000e+00	0.000000e+00	0.000000e+00	2.560000e+02	0.000000e+00
4.015000e-03	6.799289e+02		0.000000e+00	0.000000e+00	0.000000e+00	0.000000e+00	2.560000e+02	0.000000e+00
5.015000e-03	6.203830e+02		0.000000e+00	0.000000e+00	0.000000e+00	0.000000e+00	2.560000e+02	0.000000e+00
6.015000e-03	5.637564e+02		0.000000e+00	0.000000e+00	0.000000e+00	0.000000e+00	2.560000e+02	0.000000e+00
7.015000e-03	5.120368e+02		0.000000e+00	0.000000e+00	0.000000e+00	0.000000e+00	2.560000e+02	0.000000e+00
8.015000e-03	4.667581e+02		0.000000e+00	0.000000e+00	0.000000e+00	0.000000e+00	2.560000e+02	0.000000e+00
9.015000e-03	4.287087e+02		0.000000e+00	0.000000e+00	0.000000e+00	0.000000e+00	2.560000e+02	0.000000e+00
1.001500e-02	3.978876e+02		0.000000e+00	0.000000e+00	0.000000e+00	0.000000e+00	2.560000e+02	0.000000e+00
1.101500e-02	3.736841e+02		0.000000e+00	0.000000e+00	0.000000e+00	0.000000e+00	2.560000e+02	0.000000e+00
1.201500e-02	3.551502e+02		0.000000e+00	0.000000e+00	0.000000e+00	0.000000e+00	2.560000e+02	0.000000e+00
1.301500e-02	3.412467e+02		0.000000e+00	0.000000e+00	0.000000e+00	0.000000e+00	2.560000e+02	0.000000e+00
1.401500e-02	3.310075e+02		0.000000e+00	0.000000e+00	0.000000e+00	0.000000e+00	2.560000e+02	0.000000e+00
1.501500e-02	3.236209e+02		0.000000e+00	0.000000e+00	0.000000e+00	0.000000e+00	2.560000e+02	0.000000e+00
1.601500e-02	3.184543e+02		0.000000e+00	0.000000e+00	0.000000e+00	0.000000e+00	2.560000e+02	0.000000e+00
1.701500e-02	3.150461e+02		0.000000e+00	0.000000e+00	0.000000e+00	0.000000e+00	2.560000e+02	0.000000e+00
1.801500e-02	3.130856e+02		0.000000e+00	0.000000e+00	0.000000e+00	0.000000e+00	0.000000e+00	2.560000e+02
1.901500e-02	3.123927e+02		0.000000e+00	0.000000e+00	0.000000e+00	0.000000e+00	0.000000e+00	2.560000e+02
1.906500e-02	3.123897e+02		0.000000e+00	0.000000e+00	0.000000e+00	0.000000e+00	0.000000e+00	2.560000e+02

Total thickness [m] =	1.909000e-02
Total mass [kg/m^2] =	4.967950e+00

**************************************************************************

Time [s] =	3.000000e+02

BOUNDARY	AREA [m^2]   	HEAT FLOW IN [W]	MASS FLOW OUT [kg/s]:	PMMA	PMMA_glass	PMMA_res	PMMA_gas	KAOWOOL	KAOWOOL_back
TOP     	1.000000e+00	4.947418e+03		0.000000e+00	0.000000e+00	0.000000e+00	6.208204e-45	0.000000e+00	0.000000e+00
BOTTOM  	1.000000e+00	0.000000e+00		0.000000e+00	0.000000e+00	0.000000e+00	0.000000e+00	0.000000e+00	0.000000e+00

FROM TOP [m]	TEMPERATURE [K]   	CONCENTRATION [kg/m^3]:	PMMA	PMMA_glass	PMMA_res	PMMA_gas	KAOWOOL	KAOWOOL_back
2.000009e-05	8.996155e+02		2.979100e-89	2.917761e-91	1.155000e+03	1.241641e-43	0.000000e+00	0.000000e+00
1.015000e-03	8.577268e+02		0.000000e+00	0.000000e+00	0.000000e+00	0.000000e+00	2.560000e+02	0.000000e+00
2.015000e-03	8.007145e+02		0.000000e+00	0.000000e+00	0.000000e+00	0.000000e+00	2.560000e+02	0.000000e+00
3.015000e-03	7.415220e+02		0.000000e+00	0.000000e+00	0.000000e+00	0.000000e+00	2.560000e+02	0.000000e+00
4.015000e-03	6.814133e+02		0.000000e+00	0.000000e+00	0.000000e+00	0.000000e+00	2.560000e+02	0.000000e+00
5.015000e-03	6.221171e+02		0.000000e+00	0.000000e+00	0.000000e+00	0.000000e+00	2.560000e+02	0.000000e+00
6.015000e-03	5.656362e+02		0.000000e+00	0.000000e+00	0.000000e+00	0.000000e+00	2.560000e+02	0.000000e+00
7.015000e-03	5.139367e+02		0.000000e+00	0.000000e+00	0.000000e+00	0.000000e+00	2.560000e+02	0.000000e+00
8.015000e-03	4.685574e+02		0.000000e+00	0.000000e+00	0.000000e+00	0.000000e+00	2.560000e+02	0.000000e+00
9.015000e-03	4.303163e+02		0.000000e+00	0.000000e+00	0.000000e+00	0.000000e+00	2.560000e+02	0.000000e+00
1.001500e-02	3.992541e+02		0.000000e+00	0.000000e+00	0.000000e+00	0.000000e+00	2.560000e+02	0.000000e+00
1.101500e-02	3.747993e+02		0.000000e+00	0.000000e+00	0.000000e+00	0.000000e+00	2.560000e+02	0.000000e+00
1.201500e-02	3.560325e+02		0.000000e+00	0.000000e+00	0.000000e+00	0.000000e+00	2.560000e+02	0.000000e+00
1.301500e-02	3.419304e+02		0.000000e+00	0.000000e+00	0.000000e+00	0.000000e+00	2.560000e+02	0.000000e+00
1.401500e-02	3.315324e+02		0.000000e+00	0.000000e+00	0.000000e+00	0.000000e+00	2.560000e+02	0.000000e+00
1.501500e-02	3.240255e+02		0.000000e+00	0.000000e+00	0.000000e+00	0.000000e+00	2.560000e+02	0.000000e+00
1.601500e-02	3.187727e+02		0.000000e+00	0.000000e+00	0.000000e+00	0.000000e+00	2.560000e+02	0.000000e+00
1.701500e-02	3.153071e+02		0.000000e+00	0.000000e+00	0.000000e+00	0.000000e+00	2.560000e+02	0.000000e+00
1.801500e-02	3.133135e+02		0.000000e+00	0.000000e+00	0.000000e+00	0.000000e+00	0.000000e+00	2.560000e+02
1.901500e-02	3.126090e+02		0.000000e+00	0.000000e+00	0.000000e+00	0.000000e+00	0.000000e+00	2.560000e+02
1.906500e-02	3.126059e+02		0.000000e+00	0.000000e+00	0.000000e+00	0.000000e+00	0.000000e+00	2.560000e+02

Total thickness [m] =	1.909000e-02
Total mass [kg/m^2] =	4.967950e+00

Calculations are complete.
Total runtime [min]:  1.233333e+00